#No.   Fermi energy(eV)   SHC((hbar/e)*S/cm)
   1     6.000000    0.00000000E+00
   2     6.100000    0.00000000E+00
   3     6.200000    0.00000000E+00
   4     6.300000    0.00000000E+00
   5     6.400000    0.00000000E+00
   6     6.500000    0.00000000E+00
   7     6.600000    0.00000000E+00
   8     6.700000    0.00000000E+00
   9     6.800000    0.00000000E+00
  10     6.900000    0.00000000E+00
  11     7.000000    0.00000000E+00
  12     7.100000    0.00000000E+00
  13     7.200000    0.00000000E+00
  14     7.300000    0.00000000E+00
  15     7.400000    0.00000000E+00
  16     7.500000    0.00000000E+00
  17     7.600000    0.00000000E+00
  18     7.700000    0.14581808E-01
  19     7.800000    0.78201627E-02
  20     7.900000    0.43894586E-03
  21     8.000000    0.22839933E+00
  22     8.100000   -0.14334395E-01
  23     8.200000   -0.31680403E-01
  24     8.300000   -0.87826544E-01
  25     8.400000   -0.13807761E+00
  26     8.500000   -0.16198857E+00
  27     8.600000   -0.28924087E+00
  28     8.700000   -0.34642322E+00
  29     8.800000   -0.56099398E+00
  30     8.900000   -0.65147234E+00
  31     9.000000   -0.87681218E+00
  32     9.100000   -0.10503543E+01
  33     9.200000   -0.13662036E+01
  34     9.300000   -0.18294416E+01
  35     9.400000   -0.20520789E+01
  36     9.500000   -0.25748522E+01
  37     9.600000   -0.33304500E+01
  38     9.700000   -0.41440869E+01
  39     9.800000   -0.47766927E+01
  40     9.900000   -0.56339771E+01
  41    10.000000   -0.69011840E+01
  42    10.100000   -0.92993344E+01
  43    10.200000   -0.10096220E+02
  44    10.300000   -0.12649847E+02
  45    10.400000   -0.12893662E+02
  46    10.500000   -0.25347941E+02
  47    10.600000   -0.14690959E+02
  48    10.700000   -0.12256578E+02
  49    10.800000   -0.32160321E+02
  50    10.900000   -0.49370030E+02
  51    11.000000   -0.38779292E+02
  52    11.100000   -0.47574630E+02
  53    11.200000   -0.36690769E+02
  54    11.300000   -0.54545336E+02
  55    11.400000   -0.84155624E+02
  56    11.500000   -0.99982403E+02
  57    11.600000   -0.11729193E+03
  58    11.700000   -0.75770591E+02
  59    11.800000   -0.25619676E+03
  60    11.900000   -0.10860545E+03
  61    12.000000   -0.20556188E+03
  62    12.100000   -0.25060140E+03
  63    12.200000   -0.30937933E+03
  64    12.300000   -0.39486705E+03
  65    12.400000   -0.53678221E+03
  66    12.500000   -0.59291062E+03
  67    12.600000   -0.46470310E+03
  68    12.700000   -0.55219466E+03
  69    12.800000   -0.60730251E+03
  70    12.900000   -0.78057694E+03
  71    13.000000   -0.94490782E+03
  72    13.100000   -0.95332783E+03
  73    13.200000   -0.90409785E+03
  74    13.300000   -0.82236932E+03
  75    13.400000   -0.10579603E+04
  76    13.500000   -0.11939085E+04
  77    13.600000   -0.11907532E+04
  78    13.700000   -0.13329826E+04
  79    13.800000   -0.12761960E+04
  80    13.900000   -0.12085813E+04
  81    14.000000   -0.13235834E+04
  82    14.100000   -0.12910769E+04
  83    14.200000   -0.12039148E+04
  84    14.300000   -0.12681146E+04
  85    14.400000   -0.11569173E+04
  86    14.500000   -0.12927781E+04
  87    14.600000   -0.78913364E+03
  88    14.700000   -0.65037899E+03
  89    14.800000   -0.76575625E+03
  90    14.900000   -0.70487417E+03
  91    15.000000   -0.54959934E+03
  92    15.100000   -0.60286473E+03
  93    15.200000   -0.54177101E+03
  94    15.300000   -0.79105992E+03
  95    15.400000   -0.64855368E+03
  96    15.500000   -0.52691167E+03
  97    15.600000   -0.48245696E+03
  98    15.700000   -0.43530242E+03
  99    15.800000   -0.38301671E+03
 100    15.900000   -0.89826174E+02
 101    16.000000   -0.24902558E+03
 102    16.100000   -0.25142544E+03
 103    16.200000   -0.31637076E+03
 104    16.300000   -0.18677772E+03
 105    16.400000   -0.27007935E+03
 106    16.500000   -0.26577666E+03
 107    16.600000    0.35658061E+02
 108    16.700000   -0.85205856E+02
 109    16.800000    0.15196340E+03
 110    16.900000    0.10830940E+03
 111    17.000000    0.51669870E+03
 112    17.100000    0.60140110E+03
 113    17.200000    0.61254899E+03
 114    17.300000    0.74094461E+03
 115    17.400000    0.67639545E+03
 116    17.500000    0.10789596E+04
 117    17.600000    0.10213441E+04
 118    17.700000    0.13977156E+04
 119    17.800000    0.16709958E+04
 120    17.900000    0.17911221E+04
 121    18.000000    0.16733331E+04
 122    18.100000    0.17245601E+04
 123    18.200000    0.16241161E+04
 124    18.300000    0.13822932E+04
 125    18.400000    0.13003144E+04
 126    18.500000    0.10812909E+04
 127    18.600000    0.10477243E+04
 128    18.700000    0.92589693E+03
 129    18.800000    0.88254617E+03
 130    18.900000    0.64818005E+03
 131    19.000000    0.66938564E+03
 132    19.100000    0.47743784E+03
 133    19.200000    0.60422050E+03
 134    19.300000    0.62130115E+03
 135    19.400000    0.62267208E+03
 136    19.500000    0.59699068E+03
 137    19.600000    0.66643480E+03
 138    19.700000    0.40410810E+03
 139    19.800000    0.48647805E+03
 140    19.900000    0.49213567E+03
 141    20.000000    0.41857552E+03
 142    20.100000    0.41901770E+03
 143    20.200000    0.39785711E+03
 144    20.300000    0.38855307E+03
 145    20.400000    0.36255936E+03
 146    20.500000    0.31628284E+03
 147    20.600000    0.37464906E+03
 148    20.700000    0.31437123E+03
 149    20.800000    0.37113427E+03
 150    20.900000    0.37208232E+03
 151    21.000000    0.36953090E+03
 152    21.100000    0.36675322E+03
 153    21.200000    0.31365067E+03
 154    21.300000    0.31036035E+03
 155    21.400000    0.29527888E+03
 156    21.500000    0.27215971E+03
 157    21.600000    0.17283477E+03
 158    21.700000    0.31793425E+03
 159    21.800000    0.24426547E+03
 160    21.900000    0.29357586E+03
 161    22.000000    0.24535843E+03
 162    22.100000    0.28199709E+03
 163    22.200000    0.27657826E+03
 164    22.300000    0.30143262E+03
 165    22.400000    0.27889124E+03
 166    22.500000    0.28797594E+03
 167    22.600000    0.24943851E+03
 168    22.700000    0.30485969E+03
 169    22.800000    0.29290496E+03
 170    22.900000    0.26922894E+03
 171    23.000000    0.27754810E+03
 172    23.100000    0.31383029E+03
 173    23.200000    0.41927563E+03
 174    23.300000    0.30703467E+03
 175    23.400000    0.38707599E+03
 176    23.500000    0.33544229E+03
 177    23.600000    0.35766847E+03
 178    23.700000    0.43677602E+03
 179    23.800000    0.40724094E+03
 180    23.900000    0.41753586E+03
 181    24.000000    0.50149064E+03
 182    24.100000    0.63412002E+03
 183    24.200000    0.59601105E+03
 184    24.300000    0.62668258E+03
 185    24.400000    0.76709667E+03
 186    24.500000    0.76544225E+03
 187    24.600000    0.71430316E+03
 188    24.700000    0.63701211E+03
 189    24.800000    0.55216866E+03
 190    24.900000    0.57708379E+03
 191    25.000000    0.52572896E+03
 192    25.100000    0.52496427E+03
 193    25.200000    0.43293795E+03
 194    25.300000    0.28802313E+03
 195    25.400000    0.27865871E+03
 196    25.500000    0.36446686E+03
 197    25.600000    0.36554921E+03
 198    25.700000    0.28587466E+03
 199    25.800000    0.33385963E+03
 200    25.900000    0.30315904E+03
 201    26.000000    0.35150822E+03
