#No.   Fermi energy(eV)   SHC((hbar/e)*S/cm)
   1     6.000000    0.00000000E+00
   2     6.100000    0.00000000E+00
   3     6.200000    0.00000000E+00
   4     6.300000    0.00000000E+00
   5     6.400000    0.00000000E+00
   6     6.500000    0.00000000E+00
   7     6.600000    0.00000000E+00
   8     6.700000    0.00000000E+00
   9     6.800000    0.00000000E+00
  10     6.900000    0.00000000E+00
  11     7.000000    0.00000000E+00
  12     7.100000    0.00000000E+00
  13     7.200000    0.00000000E+00
  14     7.300000    0.00000000E+00
  15     7.400000    0.00000000E+00
  16     7.500000    0.00000000E+00
  17     7.600000    0.00000000E+00
  18     7.700000    0.16272044E+00
  19     7.800000    0.16272044E+00
  20     7.900000    0.16272044E+00
  21     8.000000    0.15963030E+00
  22     8.100000    0.85497840E-01
  23     8.200000    0.89753736E-01
  24     8.300000    0.54299861E-01
  25     8.400000    0.54299861E-01
  26     8.500000    0.27285799E-01
  27     8.600000   -0.33089261E-01
  28     8.700000   -0.17432535E+00
  29     8.800000   -0.17432535E+00
  30     8.900000   -0.50700405E+00
  31     9.000000   -0.97654650E+00
  32     9.100000   -0.16070282E+01
  33     9.200000   -0.16070282E+01
  34     9.300000   -0.16070282E+01
  35     9.400000   -0.16070282E+01
  36     9.500000   -0.18664118E+01
  37     9.600000   -0.23738408E+01
  38     9.700000   -0.26853668E+01
  39     9.800000   -0.51645317E+01
  40     9.900000   -0.58744077E+01
  41    10.000000   -0.82784625E+01
  42    10.100000   -0.95129181E+01
  43    10.200000   -0.12574172E+02
  44    10.300000   -0.12592043E+02
  45    10.400000   -0.12864406E+02
  46    10.500000    0.88314443E+01
  47    10.600000    0.53855761E+01
  48    10.700000   -0.38789165E+02
  49    10.800000   -0.36480380E+02
  50    10.900000   -0.47477032E+02
  51    11.000000   -0.62398353E+02
  52    11.100000   -0.74910381E+02
  53    11.200000   -0.34885174E+02
  54    11.300000   -0.47846125E+02
  55    11.400000   -0.64115630E+02
  56    11.500000   -0.78449863E+02
  57    11.600000   -0.82048315E+02
  58    11.700000   -0.87641814E+02
  59    11.800000   -0.12222466E+03
  60    11.900000   -0.13093276E+03
  61    12.000000   -0.17434439E+03
  62    12.100000   -0.10695872E+03
  63    12.200000   -0.34413800E+03
  64    12.300000   -0.38216905E+03
  65    12.400000   -0.38955534E+03
  66    12.500000   -0.41641378E+03
  67    12.600000   -0.45726398E+03
  68    12.700000   -0.47627612E+03
  69    12.800000   -0.57732816E+03
  70    12.900000   -0.61264118E+03
  71    13.000000   -0.63723387E+03
  72    13.100000   -0.68111675E+03
  73    13.200000   -0.70276967E+03
  74    13.300000   -0.87488516E+03
  75    13.400000   -0.73516912E+03
  76    13.500000   -0.82748017E+03
  77    13.600000   -0.84525713E+03
  78    13.700000   -0.94457199E+03
  79    13.800000   -0.87595179E+03
  80    13.900000   -0.11742059E+04
  81    14.000000   -0.10609103E+04
  82    14.100000   -0.10482538E+04
  83    14.200000   -0.10169756E+04
  84    14.300000   -0.10477397E+04
  85    14.400000   -0.10593367E+04
  86    14.500000   -0.86395120E+03
  87    14.600000   -0.66770839E+03
  88    14.700000   -0.45688193E+03
  89    14.800000   -0.53148846E+03
  90    14.900000   -0.56958742E+03
  91    15.000000   -0.47456934E+03
  92    15.100000   -0.26049394E+03
  93    15.200000   -0.17262998E+03
  94    15.300000   -0.44750168E+03
  95    15.400000   -0.44061612E+03
  96    15.500000   -0.39598684E+03
  97    15.600000   -0.36357011E+03
  98    15.700000   -0.38345889E+03
  99    15.800000   -0.18874894E+03
 100    15.900000   -0.23382756E+03
 101    16.000000   -0.20881652E+03
 102    16.100000   -0.24660431E+03
 103    16.200000   -0.27623590E+03
 104    16.300000   -0.26498834E+03
 105    16.400000   -0.29815978E+03
 106    16.500000   -0.16475087E+03
 107    16.600000    0.12253735E+03
 108    16.700000    0.18532639E+03
 109    16.800000    0.28201875E+03
 110    16.900000    0.16642864E+03
 111    17.000000    0.35060033E+03
 112    17.100000    0.36517830E+03
 113    17.200000    0.53796188E+03
 114    17.300000   -0.46771125E+03
 115    17.400000   -0.60208792E+02
 116    17.500000    0.43948530E+03
 117    17.600000    0.53238228E+03
 118    17.700000    0.22551290E+04
 119    17.800000    0.22192329E+04
 120    17.900000    0.22879686E+04
 121    18.000000    0.23083007E+04
 122    18.100000    0.18784440E+04
 123    18.200000    0.17329743E+04
 124    18.300000    0.17146354E+04
 125    18.400000    0.13452176E+04
 126    18.500000    0.78692867E+03
 127    18.600000    0.78968206E+03
 128    18.700000    0.78968206E+03
 129    18.800000    0.78968206E+03
 130    18.900000    0.78968206E+03
 131    19.000000    0.19494925E+03
 132    19.100000    0.19494925E+03
 133    19.200000    0.17548494E+03
 134    19.300000    0.15652560E+03
 135    19.400000    0.15376525E+03
 136    19.500000    0.66295872E+03
 137    19.600000    0.59154255E+03
 138    19.700000    0.57870533E+03
 139    19.800000    0.51018875E+03
 140    19.900000    0.54839897E+03
 141    20.000000    0.49270150E+03
 142    20.100000    0.38501777E+03
 143    20.200000    0.45097146E+03
 144    20.300000    0.45097146E+03
 145    20.400000    0.45097146E+03
 146    20.500000    0.41789989E+03
 147    20.600000    0.39129443E+03
 148    20.700000    0.35901565E+03
 149    20.800000    0.35880845E+03
 150    20.900000    0.35880845E+03
 151    21.000000    0.31776763E+03
 152    21.100000    0.32972505E+03
 153    21.200000    0.32972505E+03
 154    21.300000    0.32231641E+03
 155    21.400000    0.32370734E+03
 156    21.500000    0.57988539E+03
 157    21.600000    0.32110081E+03
 158    21.700000    0.33808867E+03
 159    21.800000    0.33303208E+03
 160    21.900000    0.33303208E+03
 161    22.000000    0.31621748E+03
 162    22.100000    0.32119860E+03
 163    22.200000    0.32119860E+03
 164    22.300000    0.32119860E+03
 165    22.400000    0.32119860E+03
 166    22.500000    0.32119860E+03
 167    22.600000    0.32119860E+03
 168    22.700000    0.31588305E+03
 169    22.800000    0.33304721E+03
 170    22.900000    0.33488982E+03
 171    23.000000    0.33736331E+03
 172    23.100000    0.33736331E+03
 173    23.200000    0.34183285E+03
 174    23.300000    0.34409208E+03
 175    23.400000    0.36903583E+03
 176    23.500000    0.37645359E+03
 177    23.600000    0.36630684E+03
 178    23.700000    0.36612427E+03
 179    23.800000    0.36107366E+03
 180    23.900000    0.37199193E+03
 181    24.000000    0.56472785E+03
 182    24.100000    0.47412663E+03
 183    24.200000    0.45858886E+03
 184    24.300000    0.43528559E+03
 185    24.400000    0.43479861E+03
 186    24.500000    0.47667601E+03
 187    24.600000    0.42805097E+03
 188    24.700000    0.60848159E+03
 189    24.800000    0.60504725E+03
 190    24.900000    0.59642218E+03
 191    25.000000    0.58122936E+03
 192    25.100000    0.56900768E+03
 193    25.200000    0.42762496E+03
 194    25.300000    0.44740986E+03
 195    25.400000    0.34661110E+03
 196    25.500000    0.34629583E+03
 197    25.600000    0.31920336E+03
 198    25.700000    0.43463419E+03
 199    25.800000    0.41205153E+03
 200    25.900000    0.35110919E+03
 201    26.000000    0.35383371E+03
