#No.   Fermi energy(eV)   SHC((hbar/e)*S/cm)
   1     6.000000    0.00000000E+00
   2     6.100000    0.00000000E+00
   3     6.200000    0.00000000E+00
   4     6.300000    0.00000000E+00
   5     6.400000    0.00000000E+00
   6     6.500000    0.00000000E+00
   7     6.600000    0.00000000E+00
   8     6.700000    0.00000000E+00
   9     6.800000    0.00000000E+00
  10     6.900000    0.00000000E+00
  11     7.000000    0.00000000E+00
  12     7.100000    0.00000000E+00
  13     7.200000    0.00000000E+00
  14     7.300000    0.00000000E+00
  15     7.400000    0.00000000E+00
  16     7.500000    0.00000000E+00
  17     7.600000    0.00000000E+00
  18     7.700000   -0.57346612E-03
  19     7.800000   -0.57346612E-03
  20     7.900000   -0.57346612E-03
  21     8.000000    0.55740808E-01
  22     8.100000   -0.63886840E-01
  23     8.200000   -0.52748421E-01
  24     8.300000   -0.92226728E-01
  25     8.400000   -0.92226728E-01
  26     8.500000   -0.11875862E+00
  27     8.600000   -0.16940939E+00
  28     8.700000   -0.38307224E+00
  29     8.800000   -0.38307224E+00
  30     8.900000   -0.72898791E+00
  31     9.000000   -0.12441616E+01
  32     9.100000   -0.16810854E+01
  33     9.200000   -0.16810854E+01
  34     9.300000   -0.16810854E+01
  35     9.400000   -0.16810854E+01
  36     9.500000   -0.19528691E+01
  37     9.600000   -0.24864057E+01
  38     9.700000   -0.28242899E+01
  39     9.800000   -0.49483399E+01
  40     9.900000   -0.62305169E+01
  41    10.000000   -0.87525458E+01
  42    10.100000   -0.99203328E+01
  43    10.200000   -0.12406780E+02
  44    10.300000   -0.12397527E+02
  45    10.400000   -0.12694776E+02
  46    10.500000   -0.14762533E+02
  47    10.600000   -0.18832378E+02
  48    10.700000   -0.10699057E+02
  49    10.800000   -0.13826579E+02
  50    10.900000   -0.26809222E+02
  51    11.000000   -0.42245893E+02
  52    11.100000   -0.55968072E+02
  53    11.200000   -0.58487293E+02
  54    11.300000   -0.68617042E+02
  55    11.400000   -0.83245204E+02
  56    11.500000   -0.98626584E+02
  57    11.600000   -0.10247454E+03
  58    11.700000   -0.10235739E+03
  59    11.800000   -0.14612884E+03
  60    11.900000   -0.15862720E+03
  61    12.000000   -0.20401645E+03
  62    12.100000   -0.13341697E+03
  63    12.200000   -0.38285880E+03
  64    12.300000   -0.41926682E+03
  65    12.400000   -0.42509263E+03
  66    12.500000   -0.43344950E+03
  67    12.600000   -0.49293267E+03
  68    12.700000   -0.50617321E+03
  69    12.800000   -0.60008512E+03
  70    12.900000   -0.63624695E+03
  71    13.000000   -0.66174938E+03
  72    13.100000   -0.70441310E+03
  73    13.200000   -0.72269493E+03
  74    13.300000   -0.90577226E+03
  75    13.400000   -0.83984014E+03
  76    13.500000   -0.87824267E+03
  77    13.600000   -0.88827636E+03
  78    13.700000   -0.10009307E+04
  79    13.800000   -0.92492949E+03
  80    13.900000   -0.12650895E+04
  81    14.000000   -0.11344841E+04
  82    14.100000   -0.11068567E+04
  83    14.200000   -0.10791816E+04
  84    14.300000   -0.11081391E+04
  85    14.400000   -0.11141537E+04
  86    14.500000   -0.93662126E+03
  87    14.600000   -0.71099660E+03
  88    14.700000   -0.49491594E+03
  89    14.800000   -0.53373470E+03
  90    14.900000   -0.60374649E+03
  91    15.000000   -0.49726965E+03
  92    15.100000   -0.30841103E+03
  93    15.200000   -0.14660188E+03
  94    15.300000   -0.47530668E+03
  95    15.400000   -0.49739131E+03
  96    15.500000   -0.44231196E+03
  97    15.600000   -0.40507306E+03
  98    15.700000   -0.42933320E+03
  99    15.800000   -0.21251881E+03
 100    15.900000   -0.25669348E+03
 101    16.000000   -0.23367542E+03
 102    16.100000   -0.28730217E+03
 103    16.200000   -0.30820309E+03
 104    16.300000   -0.35089242E+03
 105    16.400000   -0.25629837E+03
 106    16.500000   -0.21875805E+03
 107    16.600000    0.54364123E+02
 108    16.700000    0.12486400E+03
 109    16.800000    0.21983597E+03
 110    16.900000    0.87727061E+02
 111    17.000000    0.30065127E+03
 112    17.100000    0.31533301E+03
 113    17.200000    0.47739741E+03
 114    17.300000   -0.80117888E+03
 115    17.400000   -0.44620167E+03
 116    17.500000    0.84980029E+02
 117    17.600000    0.92203504E+02
 118    17.700000    0.21243218E+04
 119    17.800000    0.21337736E+04
 120    17.900000    0.21358044E+04
 121    18.000000    0.22307857E+04
 122    18.100000    0.18083745E+04
 123    18.200000    0.16703957E+04
 124    18.300000    0.16457527E+04
 125    18.400000    0.12916620E+04
 126    18.500000    0.73087836E+03
 127    18.600000    0.73618794E+03
 128    18.700000    0.73618794E+03
 129    18.800000    0.73618794E+03
 130    18.900000    0.73618794E+03
 131    19.000000    0.34587041E+03
 132    19.100000    0.34587041E+03
 133    19.200000    0.32769726E+03
 134    19.300000    0.30886139E+03
 135    19.400000    0.30606054E+03
 136    19.500000    0.58627979E+03
 137    19.600000    0.51434355E+03
 138    19.700000    0.50203580E+03
 139    19.800000    0.43567920E+03
 140    19.900000    0.47131374E+03
 141    20.000000    0.41967475E+03
 142    20.100000    0.31163147E+03
 143    20.200000    0.37697051E+03
 144    20.300000    0.37697051E+03
 145    20.400000    0.37697051E+03
 146    20.500000    0.34427994E+03
 147    20.600000    0.31793726E+03
 148    20.700000    0.28579807E+03
 149    20.800000    0.28521175E+03
 150    20.900000    0.28521175E+03
 151    21.000000    0.24597457E+03
 152    21.100000    0.25572645E+03
 153    21.200000    0.25572645E+03
 154    21.300000    0.24814912E+03
 155    21.400000    0.25339598E+03
 156    21.500000    0.52199695E+03
 157    21.600000    0.25224033E+03
 158    21.700000    0.26976824E+03
 159    21.800000    0.26478642E+03
 160    21.900000    0.26478642E+03
 161    22.000000    0.24881048E+03
 162    22.100000    0.25400532E+03
 163    22.200000    0.25400532E+03
 164    22.300000    0.25400532E+03
 165    22.400000    0.25400532E+03
 166    22.500000    0.25400532E+03
 167    22.600000    0.25400532E+03
 168    22.700000    0.24875448E+03
 169    22.800000    0.26899007E+03
 170    22.900000    0.27049910E+03
 171    23.000000    0.27295690E+03
 172    23.100000    0.27295690E+03
 173    23.200000    0.27636149E+03
 174    23.300000    0.28058595E+03
 175    23.400000    0.31429807E+03
 176    23.500000    0.32611711E+03
 177    23.600000    0.31369081E+03
 178    23.700000    0.31352604E+03
 179    23.800000    0.31258209E+03
 180    23.900000    0.32254722E+03
 181    24.000000    0.53301368E+03
 182    24.100000    0.42425271E+03
 183    24.200000    0.40600473E+03
 184    24.300000    0.38088599E+03
 185    24.400000    0.38026966E+03
 186    24.500000    0.43878298E+03
 187    24.600000    0.39232743E+03
 188    24.700000    0.58402480E+03
 189    24.800000    0.58196518E+03
 190    24.900000    0.57211942E+03
 191    25.000000    0.54701448E+03
 192    25.100000    0.53324364E+03
 193    25.200000    0.39386287E+03
 194    25.300000    0.41384394E+03
 195    25.400000    0.27827865E+03
 196    25.500000    0.27797965E+03
 197    25.600000    0.25310788E+03
 198    25.700000    0.35181106E+03
 199    25.800000    0.33623110E+03
 200    25.900000    0.28041877E+03
 201    26.000000    0.28251646E+03
